LabVIEW Measurement	
Writer_Version	2
Reader_Version	2
Separator	Tab
Decimal_Separator	.
Multi_Headings	No
X_Columns	One
Time_Pref	Absolute
Operator	Polarized Target DAQ
Date	2014/07/03
Time	13:51:50.34375
***End_of_Header***	
	
Channels	6						
Samples	1	1	1	1	1	1	
Date	2014/07/03	2014/07/03	2014/07/03	2014/07/03	2014/07/03	2014/07/03	
Time	13:51:50.421875	13:51:50.421875	13:51:50.421875	13:51:50.421875	13:51:50.421875	13:51:50.421875	
X_Dimension	Time	Time	Time	Time	Time	Time	
X0	0.0000000000000000E+0	0.0000000000000000E+0	0.0000000000000000E+0	0.0000000000000000E+0	0.0000000000000000E+0	0.0000000000000000E+0	
Delta_X	1.000000	1.000000	1.000000	1.000000	1.000000	1.000000	
***End_of_Header***							
X_Value	Untitled	Untitled 1	Untitled 2	Untitled 3	Untitled 4	Untitled 5	Comment
0.000000	0.500000	1.000000E+7	294.131300	0.000000	297.711200	217.493900
0.890625	0.500000	1.000000E+7	294.642800	74.525900	297.705100	217.459000
7.625000	0.500000	1.000000E+7	295.181200	74.484000	297.756200	217.470200
8.328125	0.500000	1.000000E+7	295.110100	74.506500	297.676900	217.480400
14.921875	0.500000	1.000000E+7	295.070100	74.463800	297.749300	217.470500
18.734375	0.500000	1.000000E+7	295.030900	74.527300	297.707100	217.463700
19.906250	0.500000	1.000000E+7	294.771200	74.525200	297.719500	217.475000
20.609375	0.500000	1.000000E+7	294.467300	74.486900	297.741200	217.484600
21.328125	0.500000	1.000000E+7	294.481900	74.546200	297.715100	217.478900
22.000000	0.500000	1.000000E+7	294.586700	74.542000	297.702800	217.483300
22.843750	0.500000	1.000000E+7	294.536300	74.509400	297.725700	217.479700
23.609375	0.500000	1.000000E+7	294.653400	74.472300	297.777200	217.470200
27.546875	0.500000	1.000000E+7	294.751700	74.519600	297.764900	217.474300
31.250000	0.500000	1.000000E+7	294.707400	74.554000	297.670700	217.479100
31.984375	0.500000	1.000000E+7	294.822200	74.524900	297.697000	217.460700
35.656250	0.500000	1.000000E+7	294.767700	74.455000	297.803000	217.481000
36.484375	0.500000	1.000000E+7	294.632000	74.521900	297.736000	217.476800
40.250000	0.500000	1.000000E+7	294.575600	74.510000	297.752300	217.495200
40.984375	0.500000	1.000000E+7	294.255100	74.538700	297.748200	217.500500
41.796875	0.500000	1.000000E+7	294.325400	74.487700	297.770100	217.478800
45.734375	0.500000	1.000000E+7	293.852500	74.464000	297.817200	217.501400
49.546875	0.500000	1.000000E+7	294.262100	74.496900	297.804900	217.475700
53.187500	0.500000	1.000000E+7	294.297000	74.493700	297.802300	217.489400
57.000000	0.500000	1.000000E+7	294.112500	74.434100	297.876600	217.494500
60.734375	0.500000	1.000000E+7	293.836600	74.569100	297.754900	217.506300
64.375000	0.500000	1.000000E+7	293.172900	74.547000	297.725100	217.520400
65.062500	0.500000	1.000000E+7	293.624400	74.525000	297.723200	217.473600
68.906250	0.500000	1.000000E+7	294.357300	74.529600	297.713900	217.463500
72.828125	0.500000	1.000000E+7	293.877800	74.511300	297.762100	217.497900
76.968750	0.500000	1.000000E+7	293.885400	74.500700	297.773200	217.494300
80.734375	0.500000	1.000000E+7	293.716300	74.457200	297.794500	217.494100
81.484375	0.500000	1.000000E+7	293.671200	74.553800	297.704600	217.479800
88.328125	0.500000	1.000000E+7	293.454900	74.523600	297.719000	217.513100
92.234375	0.500000	1.000000E+7	293.840500	74.509500	297.712500	217.479900
92.828125	0.500000	1.000000E+7	293.381300	74.526700	297.703200	217.517100
93.578125	0.500000	1.000000E+7	293.240700	74.494100	297.744700	217.507100
100.625000	0.500000	1.000000E+7	291.914900	74.507700	297.760600	217.538600
101.234375	0.500000	1.000000E+7	291.402000	74.545700	297.718500	217.523300
105.000000	0.500000	1.000000E+7	290.768000	74.484400	297.792600	217.563400
105.750000	0.500000	1.000000E+7	290.594400	74.530000	297.782200	217.558800
109.875000	0.500000	1.000000E+7	289.487700	74.487800	297.780100	217.595100
110.625000	0.500000	1.000000E+7	289.708500	74.502300	297.768300	217.545600
117.343750	0.500000	1.000000E+7	290.367900	74.457900	297.824000	217.559600
117.890625	0.500000	1.000000E+7	290.984000	74.485200	297.741400	217.525100
121.796875	0.500000	1.000000E+7	290.397100	74.472900	297.769600	217.538100
122.437500	0.500000	1.000000E+7	290.306900	74.514800	297.746000	217.547200
123.171875	0.500000	1.000000E+7	290.500600	74.519100	297.741400	217.529600
123.921875	0.500000	1.000000E+7	290.747300	74.499500	297.751700	217.534800
